onset	duration	trial_type	rating
0.03	19.13	fixation_cross	n/a
19.16	3.01	instruction	n/a
22.17	20.05	watch_static_bars	n/a
42.21	17.1	fixation_cross	n/a
59.31	3.01	instruction	n/a
62.32	20.06	control_moving_bars	n/a
82.38	4.12	rating	3
86.5	17.83	fixation_cross	n/a
104.33	3.01	instruction	n/a
107.34	20.06	watch_moving_bars	n/a
127.4	17.14	fixation_cross	n/a
144.55	3.01	instruction	n/a
147.56	20.06	control_moving_bars	n/a
167.62	1.75	rating	4
169.37	17.3	fixation_cross	n/a
186.67	3.01	instruction	n/a
189.68	20.03	watch_static_bars	n/a
209.71	19.48	fixation_cross	n/a
229.2	3.01	instruction	n/a
232.21	20.06	control_moving_bars	n/a
252.27	3.09	rating	4
255.36	19.09	fixation_cross	n/a
274.45	3.01	instruction	n/a
277.46	20.06	watch_moving_bars	n/a
297.52	17.95	fixation_cross	n/a
315.48	3.01	instruction	n/a
318.49	20.06	watch_moving_bars	n/a
338.55	19.86	fixation_cross	n/a
358.41	3.01	instruction	n/a
361.42	20.02	watch_static_bars	n/a
381.44	17.11	fixation_cross	n/a
398.55	3.01	instruction	n/a
401.56	20.03	watch_static_bars	n/a
421.59	18.33	fixation_cross	n/a
439.92	3.01	instruction	n/a
442.93	20.06	control_moving_bars	n/a
462.99	2.95	rating	3
465.94	18.16	fixation_cross	n/a
484.1	3.01	instruction	n/a
487.11	20.06	watch_moving_bars	n/a
507.17	19.3	fixation_cross	n/a
526.47	3.01	instruction	n/a
529.48	20.06	control_moving_bars	n/a
549.54	2.96	rating	4
552.51	19.39	fixation_cross	n/a
571.9	3.01	instruction	n/a
574.91	20.03	watch_static_bars	n/a
594.94	17.57	fixation_cross	n/a
612.5	3.01	instruction	n/a
615.52	20.06	watch_moving_bars	n/a
