onset	duration	trial_type	rating
0.04	19.45	fixation_cross	n/a
19.49	3.01	instruction	n/a
22.5	20.06	control_moving_bars	n/a
42.56	3.31	rating	2
45.87	19.72	fixation_cross	n/a
65.58	3.01	instruction	n/a
68.6	20.07	watch_moving_bars	n/a
88.66	17.39	fixation_cross	n/a
106.05	3.02	instruction	n/a
109.06	20.06	watch_moving_bars	n/a
129.12	19.75	fixation_cross	n/a
148.88	3.01	instruction	n/a
151.88	20.05	control_moving_bars	n/a
171.94	2.14	rating	3
174.08	18.9	fixation_cross	n/a
192.98	3.01	instruction	n/a
195.99	20.03	watch_static_bars	n/a
216.01	17.3	fixation_cross	n/a
233.32	3.01	instruction	n/a
236.33	20.06	control_moving_bars	n/a
256.39	4.56	rating	3
260.95	17.84	fixation_cross	n/a
278.79	3.01	instruction	n/a
281.81	20.03	watch_static_bars	n/a
301.84	18.64	fixation_cross	n/a
320.48	3.01	instruction	n/a
323.49	20.05	watch_moving_bars	n/a
343.54	19.87	fixation_cross	n/a
363.41	3.01	instruction	n/a
366.42	20.07	watch_moving_bars	n/a
386.49	19.9	fixation_cross	n/a
406.39	3.01	instruction	n/a
409.4	20.06	control_moving_bars	n/a
429.46	2.32	rating	4
431.77	17.48	fixation_cross	n/a
449.26	3.01	instruction	n/a
452.27	20.06	watch_moving_bars	n/a
472.33	19.92	fixation_cross	n/a
492.25	3.01	instruction	n/a
495.26	20.03	watch_static_bars	n/a
515.29	19.89	fixation_cross	n/a
535.18	3	instruction	n/a
538.18	20.03	watch_static_bars	n/a
558.21	18.47	fixation_cross	n/a
576.68	3.01	instruction	n/a
579.69	20.05	control_moving_bars	n/a
599.73	2.41	rating	3
602.15	19.4	fixation_cross	n/a
621.54	3.01	instruction	n/a
624.55	20.04	watch_static_bars	n/a
