onset	duration	trial_type	rating
0.2	19.45	fixation_cross	n/a
19.66	3.01	instruction	n/a
22.67	20.06	control_moving_bars	n/a
42.73	4.29	rating	2
47.03	19.72	fixation_cross	n/a
66.75	3.01	instruction	n/a
69.76	20.06	watch_moving_bars	n/a
89.83	17.39	fixation_cross	n/a
107.22	3.01	instruction	n/a
110.23	20.06	watch_moving_bars	n/a
130.29	19.75	fixation_cross	n/a
150.04	3.01	instruction	n/a
153.05	20.06	control_moving_bars	n/a
173.11	2.71	rating	3
175.83	18.91	fixation_cross	n/a
194.74	3.01	instruction	n/a
197.75	20.01	watch_static_bars	n/a
217.76	17.3	fixation_cross	n/a
235.06	3.01	instruction	n/a
238.07	20.06	control_moving_bars	n/a
258.13	2.17	rating	2
260.3	17.85	fixation_cross	n/a
278.15	3.01	instruction	n/a
281.16	20.03	watch_static_bars	n/a
301.19	18.64	fixation_cross	n/a
319.83	3.01	instruction	n/a
322.84	20.06	watch_moving_bars	n/a
342.9	19.87	fixation_cross	n/a
362.78	3.01	instruction	n/a
365.79	20.06	watch_moving_bars	n/a
385.85	19.91	fixation_cross	n/a
405.76	3.01	instruction	n/a
408.77	20.06	control_moving_bars	n/a
428.83	1.9	rating	3
430.73	17.49	fixation_cross	n/a
448.22	3.01	instruction	n/a
451.23	20.06	watch_moving_bars	n/a
471.29	19.92	fixation_cross	n/a
491.21	3.01	instruction	n/a
494.22	20.03	watch_static_bars	n/a
514.25	19.88	fixation_cross	n/a
534.13	3.01	instruction	n/a
537.14	20.03	watch_static_bars	n/a
557.17	18.47	fixation_cross	n/a
575.64	3.01	instruction	n/a
578.65	20.06	control_moving_bars	n/a
598.71	2.65	rating	4
601.38	19.41	fixation_cross	n/a
620.79	3.01	instruction	n/a
623.8	20.03	watch_static_bars	n/a
