onset	duration	trial_type	rating
0.03	19.13	fixation_cross	n/a
19.16	3.01	instruction	n/a
22.17	20.05	watch_static_bars	n/a
42.21	17.1	fixation_cross	n/a
59.31	3.01	instruction	n/a
62.32	20.06	control_moving_bars	n/a
82.38	4.45	rating	4
86.83	17.83	fixation_cross	n/a
104.66	3.01	instruction	n/a
107.67	20.06	watch_moving_bars	n/a
127.73	17.14	fixation_cross	n/a
144.88	3.01	instruction	n/a
147.89	20.06	control_moving_bars	n/a
167.95	1.05	rating	3
169	17.3	fixation_cross	n/a
186.29	3.01	instruction	n/a
189.31	20.03	watch_static_bars	n/a
209.34	19.48	fixation_cross	n/a
228.82	3.01	instruction	n/a
231.83	20.06	control_moving_bars	n/a
251.89	1.83	rating	4
253.72	19.09	fixation_cross	n/a
272.81	3.01	instruction	n/a
275.82	20.06	watch_moving_bars	n/a
295.88	17.96	fixation_cross	n/a
313.84	3.01	instruction	n/a
316.85	20.06	watch_moving_bars	n/a
336.91	19.86	fixation_cross	n/a
356.77	3.01	instruction	n/a
359.78	20.03	watch_static_bars	n/a
379.81	17.11	fixation_cross	n/a
396.93	3.01	instruction	n/a
399.94	20.03	watch_static_bars	n/a
419.97	18.33	fixation_cross	n/a
438.3	3.01	instruction	n/a
441.31	20.06	control_moving_bars	n/a
461.37	1.89	rating	4
463.26	18.16	fixation_cross	n/a
481.42	3.01	instruction	n/a
484.43	20.06	watch_moving_bars	n/a
504.49	19.3	fixation_cross	n/a
523.79	3.01	instruction	n/a
526.8	20.06	control_moving_bars	n/a
546.86	0.95	rating	3
547.81	19.39	fixation_cross	n/a
567.2	3.01	instruction	n/a
570.21	20.03	watch_static_bars	n/a
590.24	17.57	fixation_cross	n/a
607.81	3.01	instruction	n/a
610.82	20.06	watch_moving_bars	n/a
