onset	duration	trial_type	rating
0.3	19.45	fixation_cross	n/a
19.75	3.01	instruction	n/a
22.76	20.06	control_moving_bars	n/a
42.82	7.33	rating	5
50.15	19.72	fixation_cross	n/a
69.87	3.01	instruction	n/a
72.88	20.06	watch_moving_bars	n/a
92.94	17.4	fixation_cross	n/a
110.34	3.01	instruction	n/a
113.35	20.03	watch_static_bars	n/a
133.38	19.75	fixation_cross	n/a
153.13	3.01	instruction	n/a
156.14	20.06	control_moving_bars	n/a
176.2	3.73	rating	4
179.93	18.91	fixation_cross	n/a
198.84	3.01	instruction	n/a
201.85	20.06	watch_moving_bars	n/a
221.91	17.3	fixation_cross	n/a
239.21	3.01	instruction	n/a
242.22	20.11	control_moving_bars	n/a
262.33	3.71	rating	4
266.04	17.85	fixation_cross	n/a
283.89	3.01	instruction	n/a
286.9	20.03	watch_static_bars	n/a
306.93	18.64	fixation_cross	n/a
325.57	3.01	instruction	n/a
328.58	20.06	watch_moving_bars	n/a
348.64	19.87	fixation_cross	n/a
368.52	3.01	instruction	n/a
371.53	20.06	watch_moving_bars	n/a
391.59	19.91	fixation_cross	n/a
411.5	3.01	instruction	n/a
414.51	20.03	watch_static_bars	n/a
434.54	17.49	fixation_cross	n/a
452.03	3.01	instruction	n/a
455.04	20.06	watch_moving_bars	n/a
475.1	19.92	fixation_cross	n/a
495.02	3.01	instruction	n/a
498.03	20.06	control_moving_bars	n/a
518.09	6.6	rating	4
524.69	19.87	fixation_cross	n/a
544.57	3.01	instruction	n/a
547.58	20.03	watch_static_bars	n/a
567.61	18.47	fixation_cross	n/a
586.08	3.01	instruction	n/a
589.09	20.03	watch_static_bars	n/a
609.12	19.41	fixation_cross	n/a
628.52	3.01	instruction	n/a
631.54	20.06	control_moving_bars	n/a
651.6	1.51	rating	3
